File: XRD_2/Unknown-sample-04.xy
30.01	59
30.07	54
30.13	49
30.19	62
30.25	61
30.31	66
30.37	52
30.43	42
30.49	64
30.55	42
30.61	55
30.67	52
30.73	57
30.79	55
30.85	49
30.91	61
30.97	56
31.03	50
31.09	53
31.15	55
31.21	56
31.27	53
31.33	51
31.39	67
31.45	54
31.51	62
31.57	64
31.63	62
31.69	51
31.75	49
31.81	48
31.87	54
31.93	53
31.99	47
32.05	57
32.11	52
32.17	50
32.23	57
32.29	60
32.35	54
32.41	46
32.47	55
32.53	53
32.59	51
32.65	37
32.71	54
32.77	48
32.83	63
32.89	48
32.95	62
33.01	37
33.07	60
33.13	54
33.19	43
33.25	48
33.31	51
33.37	58
33.43	66
33.49	43
33.55	59
33.61	41
33.67	40
33.73	56
33.79	49
33.85	52
33.91	46
33.97	64
34.03	43
34.09	62
34.15	46
34.21	52
34.27	52
34.33	60
34.39	50
34.45	60
34.51	35
34.57	56
34.63	51
34.69	35
34.75	60
34.81	54
34.87	52
34.93	44
34.99	54
35.05	54
35.11	55
35.17	64
35.23	56
35.29	48
35.35	55
35.41	53
35.47	74
35.53	50
35.59	50
35.65	43
35.71	55
35.77	65
35.83	41
35.89	52
35.95	54
36.01	60
36.07	71
36.13	63
36.19	79
36.25	63
36.31	64
36.37	66
36.43	82
36.49	70
36.55	76
36.61	97
36.67	83
36.73	86
36.79	90
36.85	84
36.91	85
36.97	101
37.03	102
37.09	103
37.15	107
37.21	99
37.27	127
37.33	156
37.39	156
37.45	193
37.51	149
37.57	200
37.63	241
37.69	278
37.75	313
37.81	362
37.87	486
37.93	708
37.99	879
38.05	1255
38.11	1850
38.17	2620
38.23	3375
38.29	4186
38.35	4412
38.41	4418
38.47	3880
38.53	3190
38.59	2335
38.65	1601
38.71	1107
38.77	730
38.83	564
38.89	464
38.95	339
39.01	266
39.07	253
39.13	213
39.19	195
39.25	161
39.31	142
39.37	133
39.43	122
39.49	124
39.55	101
39.61	100
39.67	107
39.73	89
39.79	88
39.85	78
39.91	81
39.97	93
40.03	83
40.09	72
40.15	78
40.21	58
40.27	83
40.33	78
40.39	65
40.45	61
40.51	76
40.57	54
40.63	66
40.69	80
40.75	62
40.81	59
40.87	65
40.93	57
40.99	52
41.05	57
41.11	56
41.17	55
41.23	57
41.29	65
41.35	66
41.41	64
41.47	64
41.53	61
41.59	44
41.65	54
41.71	56
41.77	62
41.83	50
41.89	62
41.95	37
42.01	56
42.07	66
42.13	65
42.19	46
42.25	60
42.31	65
42.37	58
42.43	53
42.49	70
42.55	63
42.61	62
42.67	58
42.73	63
42.79	70
42.85	67
42.91	59
42.97	56
43.03	84
43.09	104
43.15	72
43.21	85
43.27	82
43.33	93
43.39	94
43.45	102
43.51	113
43.57	98
43.63	94
43.69	125
43.75	128
43.81	139
43.87	142
43.93	181
43.99	196
44.05	263
44.11	287
44.17	348
44.23	434
44.29	606
44.35	723
44.41	943
44.47	1107
44.53	1230
44.59	1272
44.65	1228
44.71	1141
44.77	1057
44.83	830
44.89	618
44.95	546
45.01	417
45.07	326
45.13	242
45.19	190
45.25	180
45.31	148
45.37	122
45.43	121
45.49	98
45.55	94
45.61	93
45.67	53
45.73	80
45.79	82
45.85	71
45.91	72
45.97	52
46.03	52
46.09	46
46.15	60
46.21	47
46.27	52
46.33	42
46.39	33
46.45	47
46.51	46
46.57	37
46.63	39
46.69	39
46.75	43
46.81	45
46.87	33
46.93	33
46.99	35
47.05	31
47.11	39
47.17	36
47.23	28
47.29	34
47.35	51
47.41	41
47.47	36
47.53	32
47.59	35
47.65	34
47.71	38
47.77	41
47.83	51
47.89	38
47.95	29
48.01	35
48.07	27
48.13	35
48.19	27
48.25	36
48.31	31
48.37	37
48.43	32
48.49	31
48.55	31
48.61	28
48.67	22
48.73	23
48.79	38
48.85	31
48.91	45
48.97	28
49.03	33
49.09	33
49.15	31
49.21	44
49.27	25
49.33	32
49.39	30
49.45	35
49.51	22
49.57	25
49.63	34
49.69	32
49.75	26
49.81	40
49.87	30
49.93	25
49.99	22
50.05	39
50.11	34
50.17	22
50.23	32
50.29	28
50.35	32
50.41	33
50.47	27
50.53	28
50.59	32
50.65	24
50.71	33
50.77	22
50.83	28
50.89	26
50.95	24
51.01	28
51.07	28
51.13	30
51.19	25
51.25	24
51.31	32
51.37	28
51.43	28
51.49	40
51.55	29
51.61	29
51.67	28
51.73	38
51.79	30
51.85	26
51.91	30
51.97	22
52.03	27
52.09	35
52.15	30
52.21	20
52.27	27
52.33	25
52.39	24
52.45	22
52.51	25
52.57	36
52.63	23
52.69	26
52.75	27
52.81	30
52.87	26
52.93	29
52.99	26
53.05	25
53.11	35
53.17	31
53.23	30
53.29	16
53.35	26
53.41	22
53.47	37
53.53	30
53.59	25
53.65	30
53.71	30
53.77	27
53.83	28
53.89	24
53.95	26
54.01	31
54.07	22
54.13	26
54.19	22
54.25	31
54.31	21
54.37	31
54.43	19
54.49	27
54.55	27
54.61	35
54.67	22
54.73	14
54.79	17
54.85	21
54.91	31
54.97	19
55.03	36
55.09	17
55.15	31
55.21	33
55.27	26
55.33	31
55.39	30
55.45	31
55.51	21
55.57	31
55.63	29
55.69	37
55.75	28
55.81	28
55.87	19
55.93	32
55.99	26
56.05	20
56.11	28
56.17	30
56.23	28
56.29	32
56.35	22
56.41	35
56.47	27
56.53	28
56.59	28
56.65	34
56.71	19
56.77	24
56.83	24
56.89	23
56.95	22
57.01	30
57.07	29
57.13	37
57.19	34
57.25	30
57.31	35
57.37	35
57.43	25
57.49	36
57.55	26
57.61	26
57.67	21
57.73	23
57.79	28
57.85	27
57.91	35
57.97	32
58.03	33
58.09	21
58.15	28
58.21	30
58.27	25
58.33	31
58.39	34
58.45	38
58.51	19
58.57	29
58.63	32
58.69	29
58.75	27
58.81	31
58.87	26
58.93	25
58.99	36
59.05	33
59.11	23
59.17	31
59.23	27
59.29	26
59.35	26
59.41	27
59.47	35
59.53	27
59.59	34
59.65	24
59.71	26
59.77	33
59.83	25
59.89	42
59.95	30
60.01	32
60.07	25
60.13	30
60.19	27
60.25	28
60.31	36
60.37	36
60.43	37
60.49	25
60.55	33
60.61	20
60.67	35
60.73	28
60.79	38
60.85	23
60.91	37
60.97	23
61.03	36
61.09	35
61.15	32
61.21	27
61.27	37
61.33	35
61.39	40
61.45	36
61.51	33
61.57	30
61.63	31
61.69	42
61.75	36
61.81	40
61.87	44
61.93	52
61.99	35
62.05	30
62.11	44
62.17	38
62.23	39
62.29	41
62.35	40
62.41	51
62.47	35
62.53	33
62.59	46
62.65	41
62.71	42
62.77	43
62.83	48
62.89	47
62.95	42
63.01	38
63.07	36
63.13	40
63.19	65
63.25	58
63.31	51
63.37	50
63.43	43
63.49	61
63.55	65
63.61	59
63.67	48
63.73	75
63.79	86
63.85	82
63.91	99
63.97	90
64.03	104
64.09	129
64.15	128
64.21	144
64.27	181
64.33	204
64.39	266
64.45	388
64.51	477
64.57	632
64.63	760
64.69	968
64.75	1010
64.81	1037
64.87	1000
64.93	970
64.99	848
65.05	675
65.11	509
65.17	362
65.23	300
65.29	259
65.35	194
65.41	157
65.47	137
65.53	122
65.59	103
65.65	82
65.71	90
65.77	82
65.83	68
65.89	62
65.95	70
66.01	66
66.07	54
66.13	66
66.19	51
66.25	45
66.31	38
66.37	59
66.43	41
66.49	48
66.55	39
66.61	34
66.67	38
66.73	52
66.79	46
66.85	38
66.91	37
66.97	37
67.03	36
67.09	36
67.15	31
67.21	40
67.27	38
67.33	46
67.39	36
67.45	37
67.51	35
67.57	38
67.63	23
67.69	42
67.75	31
67.81	33
67.87	38
67.93	27
67.99	38
68.05	36
68.11	42
68.17	24
68.23	25
68.29	24
68.35	28
68.41	31
68.47	31
68.53	35
68.59	33
68.65	31
68.71	39
68.77	36
68.83	26
68.89	28
68.95	34
69.01	38
69.07	35
69.13	28
69.19	39
69.25	31
69.31	38
69.37	23
69.43	38
69.49	30
69.55	35
69.61	35
69.67	31
69.73	31
69.79	32
69.85	32
69.91	31
69.97	32
70.03	30
70.09	29
70.15	32
70.21	36
70.27	30
70.33	38
70.39	19
70.45	22
70.51	30
70.57	22
70.63	29
70.69	29
70.75	32
70.81	35
70.87	41
70.93	17
70.99	26
71.05	43
71.11	27
71.17	34
71.23	25
71.29	35
71.35	36
71.41	41
71.47	27
71.53	33
71.59	39
71.65	26
71.71	35
71.77	22
71.83	25
71.89	36
71.95	29
72.01	34
72.07	33
72.13	26
72.19	35
72.25	29
72.31	38
72.37	17
72.43	22
72.49	34
72.55	22
72.61	33
72.67	22
72.73	36
72.79	17
72.85	31
72.91	17
72.97	27
73.03	33
73.09	24
73.15	37
73.21	32
73.27	23
73.33	29
73.39	38
73.45	32
73.51	33
73.57	37
73.63	31
73.69	35
73.75	22
73.81	31
73.87	26
73.93	30
73.99	45
74.05	32
74.11	54
74.17	35
74.23	29
74.29	35
74.35	34
74.41	32
74.47	30
74.53	30
74.59	32
74.65	31
74.71	30
74.77	35
74.83	33
74.89	33
74.95	31
75.01	33
75.07	37
75.13	37
75.19	37
75.25	33
75.31	49
75.37	34
75.43	34
75.49	41
75.55	49
75.61	30
75.67	40
75.73	44
75.79	40
75.85	47
75.91	39
75.97	50
76.03	34
76.09	41
76.15	59
76.21	48
76.27	54
76.33	47
76.39	58
76.45	56
76.51	57
76.57	57
76.63	64
76.69	63
76.75	64
76.81	77
76.87	89
76.93	94
76.99	114
77.05	115
77.11	108
77.17	146
77.23	168
77.29	173
77.35	284
77.41	313
77.47	408
77.53	540
77.59	670
77.65	794
77.71	934
77.77	943
77.83	943
77.89	950
77.95	808
78.01	685
78.07	614
78.13	467
78.19	420
78.25	320
78.31	241
78.37	187
78.43	162
78.49	125
78.55	130
78.61	106
78.67	89
78.73	77
78.79	68
78.85	58
78.91	70
78.97	54
79.03	50
79.09	54
79.15	52
79.21	46
79.27	47
79.33	39
79.39	44
79.45	55
79.51	36
79.57	49
79.63	45
79.69	44
79.75	45
79.81	43
79.87	38
79.93	43
79.99	39
80.05	33
80.11	36
80.17	31
80.23	42
80.29	41
80.35	50
80.41	44
80.47	30
80.53	34
80.59	42
80.65	46
80.71	53
80.77	30
80.83	31
80.89	47
80.95	54
81.01	45
81.07	47
81.13	50
81.19	53
81.25	68
81.31	63
81.37	65
81.43	74
81.49	81
81.55	98
81.61	109
81.67	134
81.73	208
81.79	206
81.85	269
81.91	259
81.97	235
82.03	249
82.09	241
82.15	181
82.21	180
82.27	128
82.33	124
82.39	90
82.45	68
82.51	72
82.57	53
82.63	51
82.69	52
82.75	35
82.81	48
82.87	42
82.93	40
82.99	37
83.05	32
83.11	32
83.17	32
83.23	23
83.29	36
83.35	22
83.41	27
83.47	25
83.53	29
83.59	35
83.65	30
83.71	34
83.77	17
83.83	29
83.89	28
83.95	31
84.01	32
84.07	23
84.13	35
84.19	33
84.25	32
84.31	23
84.37	21
84.43	22
84.49	29
84.55	27
84.61	27
84.67	25
84.73	23
84.79	28
84.85	18
84.91	20
84.97	26
85.03	19
85.09	27
85.15	26
85.21	14
85.27	20
85.33	19
85.39	14
85.45	25
85.51	23
85.57	20
85.63	29
85.69	32
85.75	25
85.81	25
85.87	17
85.93	18
85.99	25
86.05	22
86.11	26
86.17	23
86.23	20
86.29	23
86.35	21
86.41	25
86.47	20
86.53	24
86.59	18
86.65	19
86.71	22
86.77	20
86.83	24
86.89	14
86.95	24
87.01	25
87.07	19
87.13	24
87.19	13
87.25	21
87.31	23
87.37	21
87.43	25
87.49	18
87.55	19
87.61	33
87.67	29
87.73	15
87.79	16
87.85	21
87.91	20
87.97	16
88.03	14
88.09	19
88.15	18
88.21	13
88.27	21
88.33	17
88.39	22
88.45	25
88.51	19
88.57	20
88.63	25
88.69	12
88.75	22
88.81	20
88.87	23
88.93	18
88.99	15
89.05	23
89.11	25
89.17	27
89.23	22
89.29	17
89.35	21
89.41	27
89.47	14
89.53	21
89.59	21
89.65	17
89.71	15
89.77	20
89.83	28
89.89	23
89.95	16
90.01	27
90.07	19
90.13	14
90.19	10
90.25	23
90.31	10
90.37	18
90.43	22
90.49	25
90.55	17
90.61	17
90.67	18
90.73	26
90.79	21
90.85	34
90.91	17
90.97	16
91.03	28
91.09	17
91.15	12
91.21	19
91.27	21
91.33	21
91.39	27
91.45	10
91.51	11
91.57	27
91.63	22
91.69	21
91.75	18
91.81	14
91.87	22
91.93	23
91.99	18
92.05	19
92.11	19
92.17	13
92.23	22
92.29	17
92.35	19
92.41	22
92.47	13
92.53	18
92.59	17
92.65	22
92.71	11
92.77	18
92.83	16
92.89	16
92.95	21
93.01	16
93.07	16
93.13	20
93.19	18
93.25	11
93.31	25
93.37	23
93.43	18
93.49	23
93.55	21
93.61	19
93.67	21
93.73	16
93.79	15
93.85	17
93.91	19
93.97	25
94.03	12
94.09	13
94.15	17
94.21	20
94.27	17
94.33	27
94.39	19
94.45	20
94.51	18
94.57	20
94.63	12
94.69	28
94.75	16
94.81	24
94.87	22
94.93	22
94.99	24
95.05	22
95.11	23
95.17	21
95.23	17
95.29	15
95.35	19
95.41	18
95.47	16
95.53	20
95.59	25
95.65	20
95.71	25
95.77	23
95.83	14
95.89	27
95.95	15
96.01	21
96.07	21
96.13	23
96.19	19
96.25	19
96.31	23
96.37	23
96.43	17
96.49	18
96.55	17
96.61	24
96.67	21
96.73	32
96.79	18
96.85	20
96.91	22
96.97	15
97.03	23
97.09	27
97.15	25
97.21	29
97.27	16
97.33	33
97.39	48
97.45	32
97.51	31
97.57	44
97.63	45
97.69	26
97.75	37
97.81	47
97.87	58
97.93	63
97.99	64
98.05	93
98.11	100
98.17	95
98.23	105
98.29	115
98.35	136
98.41	130
98.47	129
98.53	118
98.59	102
98.65	104
98.71	82
98.77	81
98.83	67
98.89	75
98.95	73
99.01	57
99.07	47
99.13	41
99.19	44
99.25	33
99.31	39
99.37	24
99.43	42
99.49	33
99.55	31
99.61	29
99.67	20
99.73	36
99.79	25
99.85	28
99.91	19
99.97	26
99.99	24