File: XRD_2/Unknown-sample-03.xy
9.99775	180
10.0583	161
10.1189	146
10.1794	149
10.24	159
10.3005	162
10.3611	200
10.4216	155
10.4822	186
10.5427	201
10.6033	144
10.6638	175
10.7244	167
10.7849	156
10.8455	162
10.906	149
10.9666	155
11.0271	177
11.0877	162
11.1482	145
11.2088	173
11.2693	182
11.3299	190
11.3904	147
11.451	154
11.5115	168
11.5721	185
11.6326	171
11.6932	165
11.7537	158
11.8143	137
11.8748	151
11.9354	153
11.9959	156
12.0565	164
12.117	150
12.1776	147
12.2381	139
12.2987	151
12.3592	136
12.4198	146
12.4803	157
12.5409	135
12.6014	145
12.662	149
12.7225	145
12.7831	132
12.8436	139
12.9042	138
12.9647	142
13.0253	142
13.0858	159
13.1464	159
13.2069	148
13.2675	119
13.328	136
13.3886	138
13.4491	164
13.5097	148
13.5702	140
13.6308	133
13.6913	138
13.7519	138
13.8124	154
13.873	150
13.9335	132
13.9941	139
14.0546	141
14.1152	123
14.1757	139
14.2363	135
14.2968	120
14.3574	138
14.4179	129
14.4785	120
14.539	133
14.5996	126
14.6601	154
14.7207	119
14.7812	145
14.8418	127
14.9023	117
14.9629	133
15.0234	137
15.084	133
15.1445	121
15.2051	113
15.2656	156
15.3262	122
15.3867	135
15.4473	112
15.5078	121
15.5684	95
15.6289	124
15.6895	125
15.75	142
15.8106	134
15.8711	131
15.9317	144
15.9922	154
16.0528	130
16.1133	110
16.1739	125
16.2344	90
16.295	122
16.3555	127
16.4161	139
16.4766	128
16.5372	124
16.5977	119
16.6583	144
16.7188	130
16.7794	124
16.8399	135
16.9005	127
16.961	130
17.0216	122
17.0821	119
17.1427	107
17.2032	138
17.2638	133
17.3243	127
17.3849	115
17.4454	120
17.506	115
17.5665	126
17.6271	130
17.6876	110
17.7482	104
17.8087	108
17.8693	132
17.9298	139
17.9904	83
18.0509	123
18.1115	115
18.172	120
18.2326	118
18.2931	113
18.3537	96
18.4142	120
18.4748	115
18.5353	121
18.5959	128
18.6564	107
18.717	112
18.7775	131
18.8381	117
18.8986	124
18.9592	118
19.0197	107
19.0803	117
19.1408	90
19.2014	110
19.2619	108
19.3225	123
19.3831	134
19.4436	130
19.5042	113
19.5647	108
19.6253	111
19.6858	101
19.7464	125
19.8069	120
19.8675	111
19.928	112
19.9886	123
20.0491	107
20.1097	117
20.1702	124
20.2308	122
20.2913	126
20.3519	109
20.4124	106
20.473	105
20.5335	110
20.5941	111
20.6546	115
20.7152	123
20.7757	110
20.8363	121
20.8968	113
20.9574	114
21.0179	115
21.0785	116
21.139	108
21.1996	113
21.2601	107
21.3207	113
21.3812	102
21.4418	136
21.5023	123
21.5629	108
21.6234	98
21.684	103
21.7445	117
21.8051	116
21.8656	124
21.9262	119
21.9867	115
22.0473	127
22.1078	111
22.1684	116
22.2289	107
22.2895	141
22.35	110
22.4106	109
22.4711	124
22.5317	113
22.5922	121
22.6528	120
22.7133	109
22.7739	112
22.8344	128
22.895	111
22.9555	110
23.0161	117
23.0766	119
23.1372	98
23.1977	120
23.2583	94
23.3188	95
23.3794	115
23.4399	123
23.5005	131
23.561	111
23.6216	122
23.6821	103
23.7427	130
23.8032	119
23.8638	134
23.9243	125
23.9849	126
24.0454	99
24.106	134
24.1665	117
24.2271	128
24.2876	151
24.3482	150
24.4087	195
24.4693	220
24.5298	286
24.5904	281
24.6509	305
24.7115	309
24.772	319
24.8326	407
24.8931	498
24.9537	578
25.0142	766
25.0748	1023
25.1353	1787
25.1959	4616
25.2564	15793
25.317	28333
25.3775	17587
25.4381	5335
25.4986	1683
25.5592	1073
25.6197	686
25.6803	535
25.7408	421
25.8014	338
25.8619	323
25.9225	279
25.983	230
26.0436	254
26.1041	227
26.1647	218
26.2252	225
26.2858	201
26.3463	192
26.4069	202
26.4674	200
26.528	165
26.5885	190
26.6491	176
26.7096	171
26.7702	186
26.8307	194
26.8913	165
26.9518	147
27.0124	164
27.0729	194
27.1335	157
27.194	167
27.2546	139
27.3151	143
27.3757	157
27.4362	174
27.4968	163
27.5573	163
27.6179	138
27.6784	152
27.739	143
27.7995	173
27.8601	134
27.9206	152
27.9812	134
28.0417	129
28.1023	114
28.1628	136
28.2234	107
28.2839	132
28.3445	135
28.405	124
28.4656	111
28.5261	137
28.5867	118
28.6472	143
28.7078	136
28.7683	137
28.8289	138
28.8894	120
28.95	104
29.0105	94
29.0711	117
29.1316	133
29.1922	114
29.2527	111
29.3133	118
29.3738	108
29.4344	107
29.495	134
29.5555	108
29.6161	104
29.6766	101
29.7372	119
29.7977	110
29.8583	108
29.9188	95
29.9794	103
30.0399	99
30.1005	107
30.161	91
30.2216	116
30.2821	106
30.3427	91
30.4032	75
30.4638	106
30.5243	93
30.5849	97
30.6454	90
30.706	96
30.7665	109
30.8271	97
30.8876	82
30.9482	99
31.0087	79
31.0693	93
31.1298	83
31.1904	94
31.2509	91
31.3115	94
31.372	100
31.4326	92
31.4931	90
31.5537	97
31.6142	71
31.6748	87
31.7353	101
31.7959	89
31.8564	96
31.917	105
31.9775	90
32.0381	94
32.0986	82
32.1592	94
32.2197	66
32.2803	68
32.3408	86
32.4014	81
32.4619	84
32.5225	73
32.583	100
32.6436	87
32.7041	89
32.7647	80
32.8252	56
32.8858	79
32.9463	88
33.0069	94
33.0674	95
33.128	82
33.1885	80
33.2491	76
33.3096	80
33.3702	87
33.4307	83
33.4913	100
33.5518	78
33.6124	85
33.6729	73
33.7335	84
33.794	91
33.8546	76
33.9151	79
33.9757	79
34.0362	95
34.0968	84
34.1573	89
34.2179	84
34.2784	81
34.339	69
34.3995	74
34.4601	77
34.5206	92
34.5812	81
34.6417	92
34.7023	89
34.7628	75
34.8234	90
34.8839	85
34.9445	88
35.005	74
35.0656	79
35.1261	90
35.1867	78
35.2472	70
35.3078	69
35.3683	84
35.4289	88
35.4894	73
35.55	83
35.6105	87
35.6711	83
35.7316	80
35.7922	92
35.8527	83
35.9133	79
35.9738	88
36.0344	99
36.0949	102
36.1555	85
36.216	102
36.2766	100
36.3371	92
36.3977	95
36.4582	114
36.5188	92
36.5793	105
36.6399	113
36.7004	130
36.761	173
36.8215	332
36.8821	752
36.9426	1354
37.0032	1098
37.0637	725
37.1243	299
37.1848	168
37.2454	174
37.3059	169
37.3665	209
37.427	198
37.4876	225
37.5481	254
37.6087	431
37.6692	939
37.7298	2580
37.7903	4741
37.8509	3407
37.9114	2201
37.972	781
38.0325	356
38.0931	257
38.1536	216
38.2142	172
38.2747	170
38.3353	186
38.3958	213
38.4564	415
38.5169	1051
38.5775	1498
38.638	945
38.6986	694
38.7591	266
38.8197	150
38.8802	128
38.9408	128
39.0013	120
39.0619	100
39.1224	110
39.183	82
39.2435	95
39.3041	105
39.3646	97
39.4252	99
39.4857	81
39.5463	92
39.6069	85
39.6674	84
39.728	101
39.7885	89
39.8491	109
39.9096	81
39.9702	97
40.0307	99
40.0913	87
40.1518	87
40.2124	88
40.2729	77
40.3335	71
40.394	76
40.4546	86
40.5151	78
40.5757	87
40.6362	88
40.6968	79
40.7573	67
40.8179	75
40.8784	73
40.939	61
40.9995	80
41.0601	88
41.1206	92
41.1812	76
41.2417	89
41.3023	89
41.3628	88
41.4234	72
41.4839	78
41.5445	86
41.605	84
41.6656	79
41.7261	72
41.7867	96
41.8472	82
41.9078	69
41.9683	77
42.0289	70
42.0894	71
42.15	68
42.2105	63
42.2711	70
42.3316	77
42.3922	82
42.4527	73
42.5133	67
42.5738	64
42.6344	61
42.6949	81
42.7555	56
42.816	62
42.8766	64
42.9371	77
42.9977	76
43.0582	79
43.1188	72
43.1793	72
43.2399	63
43.3004	68
43.361	83
43.4215	67
43.4821	83
43.5426	63
43.6032	62
43.6637	74
43.7243	51
43.7848	65
43.8454	66
43.9059	72
43.9665	77
44.027	80
44.0876	77
44.1481	69
44.2087	73
44.2692	63
44.3298	62
44.3903	81
44.4509	72
44.5114	66
44.572	67
44.6325	62
44.6931	62
44.7536	77
44.8142	73
44.8747	58
44.9353	73
44.9958	74
45.0564	65
45.1169	81
45.1775	76
45.238	75
45.2986	69
45.3591	52
45.4197	69
45.4802	60
45.5408	56
45.6013	80
45.6619	63
45.7224	73
45.783	67
45.8435	61
45.9041	70
45.9646	76
46.0252	60
46.0857	69
46.1463	65
46.2068	83
46.2674	71
46.3279	95
46.3885	95
46.449	95
46.5096	83
46.5701	87
46.6307	81
46.6912	112
46.7518	94
46.8123	98
46.8729	90
46.9334	93
46.994	100
47.0545	110
47.1151	85
47.1756	75
47.2362	86
47.2967	108
47.3573	112
47.4178	118
47.4784	115
47.5389	105
47.5995	152
47.66	183
47.7206	241
47.7811	355
47.8417	456
47.9022	1021
47.9628	2747
48.0233	5646
48.0839	3992
48.1444	3246
48.205	1908
48.2655	521
48.3261	315
48.3866	239
48.4472	156
48.5077	147
48.5683	134
48.6288	108
48.6894	99
48.7499	106
48.8105	100
48.871	119
48.9316	100
48.9921	81
49.0527	78
49.1132	98
49.1738	84
49.2343	89
49.2949	84
49.3554	93
49.416	80
49.4765	84
49.5371	76
49.5976	76
49.6582	70
49.7188	77
49.7793	87
49.8399	64
49.9004	65
49.961	71
50.0215	86
50.0821	77
50.1426	76
50.2032	62
50.2637	87
50.3243	90
50.3848	70
50.4454	78
50.5059	73
50.5665	57
50.627	68
50.6876	66
50.7481	75
50.8087	74
50.8692	65
50.9298	63
50.9903	73
51.0509	64
51.1114	70
51.172	77
51.2325	86
51.2931	71
51.3536	68
51.4142	68
51.4747	68
51.5353	65
51.5958	72
51.6564	72
51.7169	70
51.7775	73
51.838	78
51.8986	83
51.9591	80
52.0197	79
52.0802	68
52.1408	80
52.2013	83
52.2619	75
52.3224	72
52.383	82
52.4435	87
52.5041	74
52.5646	69
52.6252	92
52.6857	85
52.7463	85
52.8068	85
52.8674	90
52.9279	88
52.9885	83
53.049	109
53.1096	91
53.1701	112
53.2307	88
53.2912	120
53.3518	116
53.4123	127
53.4729	117
53.5334	150
53.594	241
53.6545	278
53.7151	455
53.7756	1090
53.8362	2581
53.8967	3102
53.9573	1769
54.0178	1782
54.0784	986
54.1389	350
54.1995	246
54.26	203
54.3206	177
54.3811	142
54.4417	121
54.5022	148
54.5628	128
54.6233	119
54.6839	166
54.7444	222
54.805	241
54.8655	323
54.9261	661
54.9866	1686
55.0472	3085
55.1077	2074
55.1683	1668
55.2288	1485
55.2894	517
55.3499	233
55.4105	206
55.471	143
55.5316	103
55.5921	113
55.6527	97
55.7132	101
55.7738	82
55.8343	74
55.8949	85
55.9554	92
56.016	86
56.0765	78
56.1371	68
56.1976	78
56.2582	70
56.3187	66
56.3793	77
56.4398	64
56.5004	75
56.5609	88
56.6215	68
56.682	78
56.7426	76
56.8031	77
56.8637	67
56.9242	61
56.9848	66
57.0453	70
57.1059	62
57.1664	72
57.227	63
57.2875	72
57.3481	72
57.4086	78
57.4692	68
57.5297	57
57.5903	72
57.6508	71
57.7114	53
57.7719	59
57.8325	58
57.893	70
57.9536	59
58.0141	61
58.0747	73
58.1352	67
58.1958	72
58.2563	66
58.3169	62
58.3774	64
58.438	55
58.4985	59
58.5591	67
58.6196	60
58.6802	60
58.7407	68
58.8013	64
58.8618	60
58.9224	64
58.9829	61
59.0435	72
59.104	66
59.1646	64
59.2251	50
59.2857	60
59.3462	68
59.4068	41
59.4673	68
59.5279	52
59.5884	57
59.649	46
59.7095	55
59.7701	52
59.8307	56
59.8912	64
59.9518	59
60.0123	46
60.0729	56
60.1334	69
60.194	65
60.2545	51
60.3151	82
60.3756	37
60.4362	59
60.4967	50
60.5573	77
60.6178	64
60.6784	72
60.7389	65
60.7995	67
60.86	63
60.9206	69
60.9811	62
61.0417	70
61.1022	68
61.1628	71
61.2233	56
61.2839	60
61.3444	79
61.405	77
61.4655	66
61.5261	59
61.5866	72
61.6472	74
61.7077	71
61.7683	74
61.8288	91
61.8894	107
61.9499	130
62.0105	258
62.071	473
62.1316	447
62.1921	287
62.2527	353
62.3132	290
62.3738	206
62.4343	190
62.4949	318
62.5554	594
62.616	1406
62.6765	2088
62.7371	1225
62.7976	903
62.8582	1114
62.9187	507
62.9793	199
63.0398	137
63.1004	116
63.1609	85
63.2215	84
63.282	73
63.3426	85
63.4031	65
63.4637	64
63.5242	64
63.5848	74
63.6453	62
63.7059	69
63.7664	68
63.827	59
63.8875	57
63.9481	57
64.0086	67
64.0692	58
64.1297	51
64.1903	60
64.2508	57
64.3114	52
64.3719	64
64.4325	65
64.493	59
64.5536	59
64.6141	59
64.6747	50
64.7352	61
64.7958	55
64.8563	51
64.9169	62
64.9774	53
65.038	59
65.0985	57
65.1591	57
65.2196	57
65.2802	52
65.3407	63
65.4013	46
65.4618	47
65.5224	52
65.5829	59
65.6435	48
65.704	45
65.7646	47
65.8251	51
65.8857	51
65.9462	53
66.0068	63
66.0673	53
66.1279	46
66.1884	52
66.249	58
66.3095	67
66.3701	52
66.4306	47
66.4912	56
66.5517	51
66.6123	53
66.6728	58
66.7334	57
66.7939	46
66.8545	61
66.915	54
66.9756	50
67.0361	45
67.0967	53
67.1572	51
67.2178	43
67.2783	54
67.3389	56
67.3994	53
67.46	52
67.5205	47
67.5811	57
67.6416	58
67.7022	50
67.7627	55
67.8233	52
67.8838	60
67.9444	56
68.0049	67
68.0655	69
68.126	49
68.1866	61
68.2471	58
68.3077	72
68.3682	86
68.4288	79
68.4893	120
68.5499	133
68.6104	238
68.671	518
68.7315	850
68.7921	635
68.8526	373
68.9132	433
68.9737	423
69.0343	193
69.0948	95
69.1554	81
69.2159	75
69.2765	58
69.337	62
69.3976	65
69.4581	67
69.5187	41
69.5792	55
69.6398	54
69.7003	50
69.7609	55
69.8215	62
69.882	80
69.9426	74
70.0031	95
70.0637	144
70.1242	178
70.1848	444
70.2453	794
70.3059	775
70.3664	404
70.427	450
70.4875	479
70.5481	225
70.6086	123
70.6692	86
70.7297	75
70.7903	62
70.8508	43
70.9114	51
70.9719	55
71.0325	47
71.093	38
71.1536	49
71.2141	58
71.2747	43
71.3352	56
71.3958	41
71.4563	37
71.5169	46
71.5774	52
71.638	51
71.6985	50
71.7591	53
71.8196	53
71.8802	44
71.9407	47
72.0013	45
72.0618	45
72.1224	34
72.1829	57
72.2435	51
72.304	59
72.3646	40
72.4251	46
72.4857	41
72.5462	61
72.6068	49
72.6673	51
72.7279	46
72.7884	46
72.849	52
72.9095	45
72.9701	39
73.0306	49
73.0912	46
73.1517	47
73.2123	49
73.2728	51
73.3334	43
73.3939	42
73.4545	47
73.515	36
73.5756	44
73.6361	42
73.6967	50
73.7572	63
73.8178	59
73.8783	59
73.9389	69
73.9994	117
74.06	106
74.1205	78
74.1811	63
74.2416	94
74.3022	73
74.3627	70
74.4233	50
74.4838	68
74.5444	63
74.6049	85
74.6655	91
74.726	89
74.7866	106
74.8471	177
74.9077	348
74.9682	767
75.0288	1220
75.0893	816
75.1499	461
75.2104	579
75.271	620
75.3315	318
75.3921	126
75.4526	95
75.5132	84
75.5737	76
75.6343	61
75.6948	68
75.7554	63
75.8159	67
75.8765	104
75.937	193
75.9976	352
76.0581	360
76.1187	147
76.1792	179
76.2398	235
76.3003	148
76.3609	83
76.4214	44
76.482	48
76.5425	51
76.6031	51
76.6636	48
76.7242	46
76.7847	42
76.8453	41
76.9058	40
76.9664	45
77.0269	48
77.0875	42
77.148	46
77.2086	45
77.2691	46
77.3297	38
77.3902	41
77.4508	44
77.5113	38
77.5719	37
77.6324	39
77.693	45
77.7535	54
77.8141	34
77.8746	37
77.9352	34
77.9957	38
78.0563	34
78.1168	52
78.1774	44
78.2379	33
78.2985	46
78.359	40
78.4196	39
78.4801	43
78.5407	40
78.6012	45
78.6618	31
78.7223	52
78.7829	41
78.8434	50
78.904	54
78.9645	48
79.0251	37
79.0856	42
79.1462	41
79.2067	41
79.2673	38
79.3278	31
79.3884	51
79.4489	47
79.5095	38
79.57	46
79.6306	58
79.6911	47
79.7517	35
79.8122	41
79.8728	29
79.9334	50
79.9939	31
80.0545	39
80.115	42
80.1756	42
80.2361	37
80.2967	46
80.3572	33
80.4178	39
80.4783	47
80.5389	45
80.5994	48
80.66	59
80.7205	73
80.7811	78
80.8416	49
80.9022	49
80.9627	64
81.0233	56
81.0838	54
81.1444	43
81.2049	35
81.2655	31
81.326	40
81.3866	35
81.4471	48
81.5077	41
81.5682	35
81.6288	32
81.6893	36
81.7499	47
81.8104	42
81.871	48
81.9315	65
81.9921	60
82.0526	78
82.1132	103
82.1737	108
82.2343	79
82.2948	78
82.3554	79
82.4159	110
82.4765	127
82.537	199
82.5976	366
82.6581	544
82.7187	326
82.7792	225
82.8398	260
82.9003	302
82.9609	251
83.0214	137
83.082	199
83.1425	240
83.2031	163
83.2636	118
83.3242	104
83.3847	137
83.4453	103
83.5058	73
83.5664	55
83.6269	41
83.6875	46
83.748	33
83.8086	39
83.8691	37
83.92967	35
83.9902	38
84.0508	44
84.1113	37
84.1719	42
84.2324	37
84.293	33
84.3535	36
84.4141	27
84.4746	36
84.5352	34
84.5957	36
84.6563	41
84.7168	39
84.7774	31
84.8379	36
84.8985	31
84.959	40
85.0196	29
85.0801	31
85.1407	43
85.2012	25
85.2618	33
85.3223	35
85.3829	33
85.4434	26
85.504	33
85.5645	33
85.6251	23
85.6856	23
85.7462	25
85.8067	39
85.8673	39
85.9278	35
85.9884	37
86.0489	34
86.1095	31
86.17	42
86.2306	34
86.2911	34
86.3517	37
86.4122	38
86.4728	30
86.5333	27
86.5939	27
86.6544	24
86.715	23
86.7755	24
86.8361	37
86.8966	29
86.9572	35
87.0177	29
87.0783	35
87.1388	39
87.1994	29
87.2599	38
87.3205	24
87.381	32
87.4416	33
87.5021	36
87.5627	26
87.6232	32
87.6838	32
87.7443	25
87.8049	26
87.8654	27
87.926	33
87.9865	29
88.0471	25
88.1076	23
88.1682	29
88.2287	38
88.2893	21
88.3498	27
88.4104	28
88.4709	32
88.5315	27
88.592	24
88.6526	25
88.7131	25
88.7737	27
88.8342	27
88.8948	29
88.9553	28
89.0159	29
89.0764	28
89.137	23
89.1975	34
89.2581	23
89.3186	26
89.3792	23
89.4397	26
89.5003	22
89.5608	24
89.6214	26
89.6819	25
89.7425	32
89.803	25
89.8636	21
89.9241	29