File: XRD_1/datasal.xy
     9.998        113
    10.058        103
    10.119        107
    10.179         98
     10.24        118
    10.301        105
    10.361         94
    10.422        119
    10.482        104
    10.543        133
    10.603        126
    10.664        139
    10.724        106
    10.785        128
    10.845        157
    10.906        128
    10.967        139
    11.027        152
    11.088        121
    11.148        132
    11.209        128
    11.269        158
     11.33        128
     11.39        153
    11.451        124
    11.512        136
    11.572        109
    11.633        129
    11.693        130
    11.754        128
    11.814        133
    11.875        147
    11.935        129
    11.996        144
    12.056        138
    12.117        129
    12.178        149
    12.238        159
    12.299        134
    12.359        175
     12.42        172
     12.48        155
    12.541        167
    12.601        155
    12.662        142
    12.723        139
    12.783        136
    12.844        158
    12.904        147
    12.965        160
    13.025        184
    13.086        153
    13.146        137
    13.207        143
    13.267        157
    13.328        184
    13.389        145
    13.449        142
     13.51        152
     13.57        168
    13.631        145
    13.691        137
    13.752        157
    13.812        168
    13.873        156
    13.934        162
    13.994        145
    14.055        161
    14.115        129
    14.176        157
    14.236        150
    14.297        151
    14.357        142
    14.418        133
    14.478        149
    14.539        145
      14.6        155
     14.66        145
    14.721        161
    14.781        140
    14.842        137
    14.902        125
    14.963        157
    15.023        149
    15.084        123
    15.145        138
    15.205        137
    15.266        146
    15.326        137
    15.387        120
    15.447        135
    15.508        121
    15.568        130
    15.629        103
    15.689        118
     15.75        117
    15.811        128
    15.871        143
    15.932        131
    15.992        141
    16.053        115
    16.113        141
    16.174        137
    16.234        100
    16.295        115
    16.356        120
    16.416        128
    16.477        124
    16.537        116
    16.598        122
    16.658        119
    16.719        119
    16.779        111
     16.84        122
      16.9        112
    16.961        106
    17.022        107
    17.082        119
    17.143        125
    17.203         94
    17.264        111
    17.324         95
    17.385        113
    17.445        113
    17.506        120
    17.567        104
    17.627         98
    17.688         89
    17.748        105
    17.809         88
    17.869        107
     17.93        122
     17.99        111
    18.051         97
    18.111         94
    18.172        101
    18.233         96
    18.293         87
    18.354        108
    18.414        110
    18.475        105
    18.535        102
    18.596        101
    18.656         88
    18.717        102
    18.778        104
    18.838        102
    18.899        101
    18.959        114
     19.02         91
     19.08         80
    19.141         84
    19.201         88
    19.262        104
    19.322         93
    19.383         86
    19.444         81
    19.504        108
    19.565         81
    19.625         70
    19.686         79
    19.746        104
    19.807         74
    19.867         80
    19.928         82
    19.989         89
    20.049         71
     20.11         88
     20.17         83
    20.231         79
    20.291         71
    20.352         86
    20.412         74
    20.473         75
    20.534         87
    20.594         70
    20.655         81
    20.715         78
    20.776         64
    20.836         74
    20.897         79
    20.957         71
    21.018         72
    21.078         84
    21.139         79
      21.2         72
     21.26         70
    21.321         84
    21.381         69
    21.442         65
    21.502         68
    21.563         72
    21.623         80
    21.684         99
    21.745         76
    21.805         77
    21.866         78
    21.926         73
    21.987         75
    22.047         95
    22.108         77
    22.168         67
    22.229         74
    22.289         78
     22.35         97
    22.411         68
    22.471         72
    22.532         86
    22.592         72
    22.653         86
    22.713         83
    22.774         87
    22.834         70
    22.895         69
    22.956         78
    23.016         91
    23.077         76
    23.137         68
    23.198         87
    23.258         61
    23.319         87
    23.379         55
     23.44         82
      23.5         69
    23.561         65
    23.622         83
    23.682         77
    23.743         88
    23.803         62
    23.864         65
    23.924         93
    23.985         71
    24.045         69
    24.106         86
    24.167         80
    24.227         79
    24.288         76
    24.348         65
    24.409         72
    24.469         78
     24.53         77
     24.59         71
    24.651         62
    24.711         67
    24.772         59
    24.833         62
    24.893         89
    24.954         65
    25.014         82
    25.075         78
    25.135         66
    25.196         66
    25.256         66
    25.317         84
    25.378         60
    25.438         64
    25.499         80
    25.559         78
     25.62         75
     25.68         67
    25.741         85
    25.801         52
    25.862         68
    25.922         68
    25.983         70
    26.044         68
    26.104         76
    26.165         66
    26.225         77
    26.286         68
    26.346         63
    26.407         71
    26.467         79
    26.528         70
    26.589         74
    26.649         71
     26.71         81
     26.77         73
    26.831         65
    26.891         76
    26.952         77
    27.012         78
    27.073         73
    27.133         70
    27.194         72
    27.255         94
    27.315         71
    27.376        124
    27.436        200
    27.497        658
    27.557       1377
    27.618        878
    27.678        273
    27.739        105
      27.8         92
     27.86         81
    27.921         96
    27.981         95
    28.042         79
    28.102         93
    28.163         68
    28.223         70
    28.284         74
    28.344         85
    28.405         68
    28.466         69
    28.526         85
    28.587         72
    28.647         77
    28.708         73
    28.768         82
    28.829         86
    28.889         67
     28.95         74
    29.011         62
    29.071         89
    29.132         69
    29.192         72
    29.253         71
    29.313         58
    29.374         67
    29.434         76
    29.495         81
    29.555         78
    29.616         76
    29.677         91
    29.737         78
    29.798         71
    29.858         52
    29.919         88
    29.979         72
     30.04         87
      30.1         76
    30.161         79
    30.222         98
    30.282         92
    30.343         80
    30.403         89
    30.464         85
    30.524         85
    30.585         89
    30.645         64
    30.706         98
    30.767        143
    30.827        195
    30.888        202
    30.948        207
    31.009        229
    31.069        198
     31.13        213
     31.19        218
    31.251        229
    31.311        269
    31.372        240
    31.433        270
    31.493        314
    31.554        382
    31.614        528
    31.675        695
    31.735       1477
    31.796       5028
    31.856      30085
    31.917      29712
    31.978      19509
    32.038       2533
    32.099        891
    32.159        694
     32.22        559
     32.28        396
    32.341        265
    32.401        247
    32.462        212
    32.522        209
    32.583        206
    32.644        198
    32.704        191
    32.765        179
    32.825        184
    32.886        172
    32.946        156
    33.007        155
    33.067        129
    33.128        173
    33.189        148
    33.249        148
     33.31        135
     33.37        143
    33.431        147
    33.491        130
    33.552        142
    33.612        144
    33.673        126
    33.733        110
    33.794        123
    33.855        110
    33.915        113
    33.976        116
    34.036        114
    34.097        110
    34.157        129
    34.218        132
    34.278        121
    34.339        151
      34.4        115
     34.46        114
    34.521        102
    34.581        108
    34.642        117
    34.702        102
    34.763        107
    34.823         99
    34.884         94
    34.944         90
    35.005         90
    35.066         93
    35.126         99
    35.187        100
    35.247         96
    35.308         90
    35.368         83
    35.429         96
    35.489        108
     35.55         80
    35.611         86
    35.671         68
    35.732        102
    35.792         93
    35.853         82
    35.913         94
    35.974         83
    36.034        100
    36.095         77
    36.155         85
    36.216        106
    36.277         84
    36.337         74
    36.398         89
    36.458         84
    36.519         85
    36.579         78
     36.64         88
      36.7         75
    36.761         94
    36.822         85
    36.882         84
    36.943         83
    37.003         78
    37.064         86
    37.124         83
    37.185         72
    37.245         60
    37.306         75
    37.366         94
    37.427         92
    37.488         76
    37.548         84
    37.609         70
    37.669         77
     37.73         78
     37.79         73
    37.851         64
    37.911         76
    37.972         95
    38.033         80
    38.093         66
    38.154         64
    38.214         78
    38.275         79
    38.335         64
    38.396         60
    38.456         59
    38.517         68
    38.577         57
    38.638         68
    38.699         66
    38.759         67
     38.82         70
     38.88         61
    38.941         65
    39.001         78
    39.062         68
    39.122         63
    39.183         69
    39.244         49
    39.304         68
    39.365         74
    39.425         65
    39.486         73
    39.546         72
    39.607         43
    39.667         69
    39.728         69
    39.789         67
    39.849         66
     39.91         75
     39.97         69
    40.031         63
    40.091         79
    40.152         57
    40.212         52
    40.273         83
    40.333         65
    40.394         62
    40.455         64
    40.515         49
    40.576         60
    40.636         62
    40.697         63
    40.757         60
    40.818         42
    40.878         75
    40.939         57
      41.0         61
     41.06         65
    41.121         69
    41.181         66
    41.242         68
    41.302         62
    41.363         66
    41.423         53
    41.484         68
    41.544         60
    41.605         63
    41.666         61
    41.726         59
    41.787         67
    41.847         61
    41.908         66
    41.968         78
    42.029         58
    42.089         62
     42.15         55
    42.211         59
    42.271         60
    42.332         54
    42.392         61
    42.453         55
    42.513         59
    42.574         67
    42.634         59
    42.695         55
    42.755         55
    42.816         59
    42.877         58
    42.937         53
    42.998         54
    43.058         52
    43.119         62
    43.179         58
     43.24         59
      43.3         65
    43.361         78
    43.422         63
    43.482         57
    43.543         66
    43.603         63
    43.664         55
    43.724         67
    43.785         55
    43.845         69
    43.906         61
    43.966         74
    44.027         84
    44.088         93
    44.148         75
    44.209         93
    44.269         71
     44.33         78
     44.39         76
    44.451         79
    44.511         84
    44.572         93
    44.633         90
    44.693         86
    44.754         97
    44.814         71
    44.875        112
    44.935         81
    44.996        101
    45.056        109
    45.117        115
    45.177        113
    45.238        142
    45.299        200
    45.359        273
     45.42        389
     45.48       1219
    45.541       4388
    45.601       5388
    45.662       3848
    45.722       2815
    45.783        948
    45.844        391
    45.904        222
    45.965        173
    46.025        116
    46.086        121
    46.146         90
    46.207         87
    46.267         85
    46.328         77
    46.388         84
    46.449         84
     46.51         76
     46.57         62
    46.631         72
    46.691         78
    46.752         82
    46.812         73
    46.873         62
    46.933         72
    46.994         72
    47.055         96
    47.115         56
    47.176         87
    47.236         65
    47.297         70
    47.357         73
    47.418         51
    47.478         70
    47.539         56
    47.599         72
     47.66         70
    47.721         66
    47.781         72
    47.842         57
    47.902         64
    47.963         56
    48.023         72
    48.084         59
    48.144         63
    48.205         53
    48.266         67
    48.326         66
    48.387         63
    48.447         65
    48.508         70
    48.568         62
    48.629         70
    48.689         69
     48.75         43
     48.81         64
    48.871         61
    48.932         71
    48.992         75
    49.053         61
    49.113         56
    49.174         48
    49.234         69
    49.295         63
    49.355         58
    49.416         63
    49.477         56
    49.537         53
    49.598         60
    49.658         63
    49.719         60
    49.779         57
     49.84         58
      49.9         48
    49.961         52
    50.022         54
    50.082         58
    50.143         49
    50.203         68
    50.264         61
    50.324         51
    50.385         43
    50.445         51
    50.506         46
    50.566         54
    50.627         56
    50.688         52
    50.748         54
    50.809         57
    50.869         46
     50.93         61
     50.99         57
    51.051         54
    51.111         60
    51.172         58
    51.233         60
    51.293         48
    51.354         61
    51.414         50
    51.475         51
    51.535         49
    51.596         46
    51.656         55
    51.717         58
    51.777         66
    51.838         53
    51.899         46
    51.959         56
     52.02         53
     52.08         61
    52.141         53
    52.201         46
    52.262         51
    52.322         53
    52.383         52
    52.444         52
    52.504         44
    52.565         47
    52.625         41
    52.686         62
    52.746         47
    52.807         45
    52.867         48
    52.928         50
    52.988         52
    53.049         43
     53.11         49
     53.17         56
    53.231         46
    53.291         43
    53.352         52
    53.412         51
    53.473         51
    53.533         38
    53.594         45
    53.655         41
    53.715         51
    53.776         49
    53.836         62
    53.897        106
    53.957        172
    54.018        177
    54.078        146
    54.139        144
    54.199         97
     54.26         55
    54.321         53
    54.381         48
    54.442         43
    54.502         51
    54.563         49
    54.623         53
    54.684         47
    54.744         62
    54.805         51
    54.866         53
    54.926         46
    54.987         60
    55.047         49
    55.108         49
    55.168         38
    55.229         52
    55.289         57
     55.35         45
     55.41         48
    55.471         38
    55.532         53
    55.592         50
    55.653         53
    55.713         48
    55.774         43
    55.834         40
    55.895         63
    55.955         39
    56.016         45
    56.077         43
    56.137         55
    56.198         59
    56.258         64
    56.319         76
    56.379         86
     56.44        130
      56.5        280
    56.561        618
    56.621        823
    56.682        505
    56.743        487
    56.803        311
    56.864        146
    56.924         81
    56.985         74
    57.045         56
    57.106         47
    57.166         46
    57.227         51
    57.288         41
    57.348         40
    57.409         46
    57.469         48
     57.53         48
     57.59         41
    57.651         41
    57.711         37
    57.772         35
    57.832         38
    57.893         45
    57.954         33
    58.014         35
    58.075         36
    58.135         41
    58.196         42
    58.256         47
    58.317         47
    58.377         32
    58.438         37
    58.499         40
    58.559         32
     58.62         38
     58.68         35
    58.741         51
    58.801         49
    58.862         41
    58.922         40
    58.983         43
    59.043         33
    59.104         40
    59.165         42
    59.225         47
    59.286         56
    59.346         38
    59.407         39
    59.467         29
    59.528         38
    59.588         39
    59.649         37
     59.71         32
     59.77         32
    59.831         38
    59.891         30
    59.952         39
    60.012         40
    60.073         41
    60.133         39
    60.194         34
    60.255         30
    60.315         34
    60.376         37
    60.436         33
    60.497         34
    60.557         48
    60.618         30
    60.678         40
    60.739         51
    60.799         35
     60.86         47
    60.921         37
    60.981         39
    61.042         45
    61.102         26
    61.163         43
    61.223         27
    61.284         29
    61.344         31
    61.405         35
    61.466         35
    61.526         32
    61.587         39
    61.647         43
    61.708         37
    61.768         35
    61.829         40
    61.889         28
     61.95         30
     62.01         35
    62.071         36
    62.132         33
    62.192         33
    62.253         30
    62.313         38
    62.374         34
    62.434         22
    62.495         39
    62.555         40
    62.616         38
    62.677         30
    62.737         39
    62.798         40
    62.858         27
    62.919         34
    62.979         34
     63.04         35
      63.1         32
    63.161         35
    63.221         27
    63.282         36
    63.343         41
    63.403         44
    63.464         36
    63.524         30
    63.585         40
    63.645         34
    63.706         34
    63.766         32
    63.827         37
    63.888         32
    63.948         39
    64.009         41
    64.069         37
     64.13         32
     64.19         40
    64.251         33
    64.311         38
    64.372         34
    64.432         37
    64.493         36
    64.554         34
    64.614         44
    64.675         37
    64.735         51
    64.796         44
    64.856         42
    64.917         43
    64.977         49
    65.038         52
    65.099         37
    65.159         41
     65.22         41
     65.28         45
    65.341         48
    65.401         29
    65.462         42
    65.522         41
    65.583         38
    65.643         42
    65.704         38
    65.765         50
    65.825         41
    65.886         61
    65.946         56
    66.007         81
    66.067         93
    66.128        105
    66.188        172
    66.249        444
     66.31       1454
     66.37       2255
    66.431        621
    66.491        813
    66.552       1128
    66.612        336
    66.673        148
    66.733         85
    66.794         74
    66.854         66
    66.915         47
    66.976         47
    67.036         43
    67.097         43
    67.157         35
    67.218         44
    67.278         38
    67.339         34
    67.399         36
     67.46         37
    67.521         35
    67.581         30
    67.642         22
    67.702         37
    67.763         34
    67.823         47
    67.884         39
    67.944         29
    68.005         29
    68.065         36
    68.126         38
    68.187         39
    68.247         31
    68.308         36
    68.368         34
    68.429         33
    68.489         31
     68.55         30
     68.61         33
    68.671         22
    68.732         36
    68.792         42
    68.853         36
    68.913         36
    68.974         31
    69.034         37
    69.095         32
    69.155         26
    69.216         30
    69.276         31
    69.337         33
    69.398         28
    69.458         25
    69.519         29
    69.579         33
     69.64         43
      69.7         43
    69.761         32
    69.821         32
    69.882         28
    69.943         27
    70.003         35
    70.064         34
    70.124         29
    70.185         25
    70.245         28
    70.306         30
    70.366         34
    70.427         28
    70.488         32
    70.548         28
    70.609         21
    70.669         32
     70.73         34
     70.79         27
    70.851         24
    70.911         31
    70.972         31
    71.032         29
    71.093         38
    71.154         30
    71.214         25
    71.275         28
    71.335         35
    71.396         25
    71.456         29
    71.517         31
    71.577         23
    71.638         26
    71.699         27
    71.759         26
     71.82         23
     71.88         22
    71.941         27
    72.001         31
    72.062         32
    72.122         32
    72.183         24
    72.243         28
    72.304         34
    72.365         27
    72.425         27
    72.486         32
    72.546         28
    72.607         28
    72.667         42
    72.728         22
    72.788         38
    72.849         31
     72.91         32
     72.97         37
    73.031         37
    73.091         55
    73.152         79
    73.212         56
    73.273         45
    73.333         52
    73.394         46
    73.454         40
    73.515         42
    73.576         36
    73.636         23
    73.697         26
    73.757         29
    73.818         35
    73.878         29
    73.939         27
    73.999         34
     74.06         28
    74.121         38
    74.181         43
    74.242         38
    74.302         37
    74.363         32
    74.423         36
    74.484         42
    74.544         32
    74.605         30
    74.665         35
    74.726         35
    74.787         30
    74.847         42
    74.908         47
    74.968         43
    75.029         66
    75.089         61
     75.15         81
     75.21        166
    75.271        358
    75.332        848
    75.392       1063
    75.453        388
    75.513        348
    75.574        535
    75.634        408
    75.695        179
    75.755         68
    75.816         50
    75.876         44
    75.937         35
    75.998         32
    76.058         29
    76.119         33
    76.179         33
     76.24         22
      76.3         30
    76.361         25
    76.421         25
    76.482         32
    76.543         32
    76.603         35
    76.664         24
    76.724         25
    76.785         30
    76.845         22
    76.906         22
    76.966         28
    77.027         19
    77.087         26
    77.148         32
    77.209         29
    77.269         26
     77.33         27
     77.39         23
    77.451         21
    77.511         22
    77.572         20
    77.632         29
    77.693         30
    77.754         27
    77.814         26
    77.875         24
    77.935         34
    77.996         24
    78.056         28
    78.117         23
    78.177         22
    78.238         21
    78.298         30
    78.359         21
     78.42         27
     78.48         29
    78.541         17
    78.601         24
    78.662         22
    78.722         26
    78.783         20
    78.843         24
    78.904         15
    78.965         25
    79.025         23
    79.086         28
    79.146         17
    79.207         20
    79.267         24
    79.328         23
    79.388         23
    79.449         22
    79.509         23
     79.57         26
    79.631         23
    79.691         16
    79.752         19
    79.812         17
    79.873         20
    79.933         21
    79.994         19
    80.054         19
    80.115         24
    80.176         21
    80.236         24
    80.297         18
    80.357         16
    80.418         24
    80.478         21
    80.539         20
    80.599         21
     80.66         15
    80.721         28
    80.781         22
    80.842         26
    80.902         18
    80.963         26
    81.023         14
    81.084         21
    81.144         16
    81.205         12
    81.265         16
    81.326         22
    81.387         18
    81.447         26
    81.508         18
    81.568         20
    81.629         19
    81.689         16
     81.75         11
     81.81         22
    81.871         13
    81.932         25
    81.992         17
    82.053         21
    82.113         19
    82.174         26
    82.234         16
    82.295         17
    82.355         16
    82.416         23
    82.476         13
    82.537         22
    82.598         24
    82.658         20
    82.719         20
    82.779         16
     82.84         19
      82.9         24
    82.961         13
    83.021         18
    83.082         17
    83.143         21
    83.203         17
    83.264         24
    83.324         24
    83.385         22
    83.445         18
    83.506         23
    83.566         18
    83.627         20
    83.687         35
    83.748         25
    83.809         44
    83.869         60
     83.93        109
     83.99        160
    84.051        224
    84.111        157
    84.172        103
    84.232         93
    84.293        116
    84.354         99
    84.414         49
    84.475         28
    84.535         28
    84.596         24
    84.656         15
    84.717         19
    84.777         20
    84.838         22
    84.898         18
    84.959         15
     85.02         18
     85.08         20
    85.141         15
    85.201         19
    85.262         22
    85.322         14
    85.383         10
    85.443         14
    85.504         15
    85.565         15
    85.625         15
    85.686         18
    85.746         20
    85.807         20
    85.867         13
    85.928         16
    85.988         11
    86.049         12
    86.109         16
     86.17         12
    86.231         14
    86.291         12
    86.352         17
    86.412         11
    86.473         20
    86.533         19
    86.594         10
    86.654         12
    86.715         18
    86.776         12
    86.836         15
    86.897          8
    86.957         14
    87.018         14
    87.078          8
    87.139         12
    87.199         13
     87.26         15
     87.32         11
    87.381         15
    87.442          9
    87.502         11
    87.563         11
    87.623         15
    87.684         13
    87.744         19
    87.805         11
    87.865         16
    87.926         15
    87.987          9
    88.047         16
    88.108         10
    88.168         14
    88.229          8
    88.289         18
     88.35         10
     88.41         10
    88.471          5
    88.531         12
    88.592          9
    88.653         13
    88.713         12
    88.774         14
    88.834         18
    88.895         10
    88.955          9
    89.016          9
    89.076         12
    89.137         13
    89.198          9
    89.258         11
    89.319         12
    89.379         10
     89.44         16
      89.5         18
    89.561         13
    89.621         11
    89.682         12
    89.742         13
    89.803         12
    89.864         10
    89.924         13
    89.985         10
    89.995          9